Folder: embo_integrative_course2022/SAXS_TUTORIAL/SUBTRACTED_DATA/result

Note: SAXS_TUTORIAL/SUBTRACTED_DATA/result/readme.txt
file extracted to infinite dilution (zero concentration): zc_001.dat

cropped low angle data from hi conc set: P1_1_P1_Buffer_0013c.dat

File: zc_001.dat
Sample description: Extrapolated to infinite dilution
Sample: Extrapolated to  c= 0.000 mg/ml  Code: P1_4_P1_Buffer
Parent(s): C:/Users/jeffries/Desktop/p3l-garcia/RNA_Polymerase_Kosinski_EMBO_course/Concentration_series/P1_4_P1_Buffer_0022.dat C:/Users/jeffries/Desktop/p3l-garcia/RNA_Polymerase_Kosinski_EMBO_course/Concentration_series/P1_3_P1_Buffer_0019.dat C:/Users/jeffries/Desktop/p3l-garcia/RNA_Polymerase_Kosinski_EMBO_course/Concentration_series/P1_2_P1_Buffer_0016.dat C:/Users/jeffries/Desktop/p3l-garcia/RNA_Polymerase_Kosinski_EMBO_course/Concentration_series/P1_1_P1_Buffer_0013.dat
 3.913000e-002  5.836755e-001  8.374581e-003
 7.216020e-002  4.784197e-001  2.714116e-003
 1.051900e-001  4.107953e-001  1.758985e-003
 1.382210e-001  3.674301e-001  1.385302e-003
 1.712510e-001  3.232746e-001  1.146966e-003
 2.042810e-001  2.751149e-001  9.961346e-004
 2.373110e-001  2.296662e-001  9.037221e-004
 2.703410e-001  1.864155e-001  7.521360e-004
 3.033720e-001  1.486135e-001  6.327581e-004
 3.364020e-001  1.140533e-001  5.691330e-004
 3.694320e-001  8.672007e-002  5.055957e-004
 4.024620e-001  6.407492e-002  4.457035e-004
 4.354920e-001  4.613104e-002  3.956994e-004
 4.685230e-001  3.286368e-002  3.793054e-004
 5.015530e-001  2.220916e-002  3.280112e-004
 5.345830e-001  1.535615e-002  3.014976e-004
 5.676130e-001  1.103870e-002  2.803288e-004
 6.006440e-001  7.807449e-003  2.632634e-004
 6.336740e-001  6.108250e-003  2.522912e-004
 6.667040e-001  5.814515e-003  2.473870e-004
 6.997340e-001  5.315213e-003  2.414383e-004
 7.327640e-001  4.258566e-003  2.349684e-004
 7.657950e-001  3.777368e-003  2.312095e-004
 7.988250e-001  4.156294e-003  2.414990e-004
 8.318550e-001  4.156809e-003  2.473167e-004
 8.648850e-001  3.479066e-003  2.328769e-004
 8.979150e-001  3.220478e-003  2.365901e-004
 9.309460e-001  2.783250e-003  2.284248e-004
 9.639760e-001  2.188294e-003  2.191932e-004
 9.970060e-001  2.237221e-003  2.141407e-004
 1.030040e+000  1.806074e-003  2.089703e-004
 1.063070e+000  1.390316e-003  2.049475e-004
 1.096100e+000  1.450493e-003  2.012659e-004
 1.129130e+000  1.974007e-003  2.004910e-004
 1.162160e+000  1.003875e-003  1.956013e-004
 1.195190e+000  1.304272e-003  1.930510e-004
 1.228220e+000  1.249059e-003  1.887601e-004
 1.261250e+000  7.777941e-004  1.872256e-004
 1.294280e+000  1.241978e-003  1.852294e-004
 1.327310e+000  6.985662e-004  1.826646e-004
 1.360340e+000  6.640368e-004  1.805277e-004
 1.393370e+000  9.141471e-004  1.916515e-004
 1.426400e+000  9.863897e-004  1.955541e-004
 1.459430e+000  8.337426e-004  1.823248e-004
 1.492460e+000  4.988456e-004  1.791691e-004
 1.525490e+000  3.602059e-004  1.771348e-004
 1.558520e+000  7.523382e-004  1.746289e-004
 1.591550e+000  5.591176e-004  1.723021e-004
 1.624580e+000  5.075221e-004  1.709988e-004
 1.657610e+000  5.652647e-004  1.680669e-004
 1.690640e+000  4.639559e-004  1.673679e-004
 1.723670e+000  3.353015e-004  1.655928e-004
 1.756700e+000  5.050515e-004  1.651549e-004
 1.789730e+000  3.760368e-004  1.636915e-004
 1.822760e+000  4.888824e-004  1.624666e-004
 1.855790e+000  3.454118e-004  1.622232e-004
 1.888820e+000  2.783162e-004  1.603916e-004
 1.921850e+000  3.980882e-004  1.582319e-004
 1.954880e+000  1.122794e-004  1.624599e-004
 1.987910e+000  2.327868e-004  1.679968e-004
 2.020940e+000  3.368750e-004  1.647076e-004
 2.053970e+000  3.981838e-004  1.600968e-004
 2.087000e+000 -4.031618e-005  1.581862e-004
 2.120030e+000  4.849265e-005  1.571170e-004
 2.153060e+000  4.187206e-004  1.556685e-004
 2.186090e+000  2.066618e-004  1.530373e-004
 2.219120e+000  1.630588e-004  1.523427e-004
 2.252150e+000  1.953015e-004  1.513968e-004
 2.285180e+000  3.149118e-004  1.517945e-004
 2.318210e+000  3.375074e-004  1.524040e-004
 2.351240e+000  4.449779e-004  1.507366e-004
 2.384270e+000  3.716176e-005  1.484211e-004
 2.417310e+000  6.291176e-005  1.462854e-004
 2.450340e+000  4.206250e-004  1.467730e-004
 2.483370e+000  1.952794e-004  1.458299e-004
 2.516400e+000  3.366912e-004  1.450454e-004
 2.549430e+000  3.814118e-004  1.512748e-004
 2.582460e+000 -5.679412e-005  1.550869e-004
 2.615490e+000  4.809706e-004  1.489649e-004
 2.648520e+000 -6.891176e-005  1.462044e-004
 2.681550e+000  2.914706e-005  1.445674e-004
 2.714580e+000  2.086103e-004  1.436853e-004
 2.747610e+000  3.084412e-004  1.429321e-004
 2.780640e+000  3.248382e-004  1.418901e-004
 2.813670e+000  1.977941e-006  1.401252e-004
 2.846700e+000  4.950588e-004  1.397821e-004
 2.879730e+000  2.365515e-004  1.389874e-004
 2.912760e+000  8.592647e-005  1.379093e-004
 2.945790e+000  3.502574e-004  1.381755e-004
 2.978820e+000 -9.734559e-005  1.367496e-004
 3.011850e+000  1.747794e-004  1.351032e-004
 3.044880e+000  4.766176e-005  1.354856e-004
 3.077910e+000 -8.813971e-005  1.348038e-004
 3.110940e+000  8.544118e-005  1.342912e-004
 3.143970e+000  2.949265e-005  1.422280e-004
 3.177000e+000  2.510074e-004  1.454690e-004
 3.210030e+000  2.506029e-004  1.389422e-004
 3.243060e+000  2.130956e-004  1.373878e-004
 3.276090e+000  2.092426e-004  1.356194e-004
 3.309120e+000  8.504412e-005  1.357469e-004
 3.342150e+000  2.897206e-004  1.349232e-004
 3.375180e+000  2.949853e-004  1.342882e-004
 3.408210e+000  1.486838e-004  1.322751e-004
 3.441240e+000  4.286765e-006  1.315235e-004
 3.474270e+000  1.313897e-004  1.316703e-004
 3.507300e+000 -7.861029e-005  1.315721e-004
 3.540330e+000  1.554485e-004  1.316034e-004
 3.573360e+000  2.647868e-004  1.322629e-004
 3.606390e+000  3.055074e-004  1.318699e-004
 3.639420e+000 -7.301471e-006  1.318757e-004
 3.672450e+000  2.856985e-004  1.323433e-004
 3.705480e+000  3.822794e-004  1.355999e-004
 3.738510e+000  1.272132e-004  1.417579e-004
 3.771540e+000  7.889706e-005  1.396020e-004
 3.804570e+000  6.389706e-005  1.370386e-004
 3.837600e+000  1.913309e-004  1.352189e-004
 3.870630e+000  4.507353e-006  1.347271e-004
 3.903660e+000  1.904338e-004  1.354075e-004
 3.936690e+000  1.343235e-004  1.363375e-004
 3.969730e+000  1.846691e-004  1.362779e-004
 4.002760e+000  2.863456e-004  1.360607e-004
 4.035790e+000  1.795147e-004  1.364946e-004
 4.068820e+000  2.810441e-004  1.368007e-004
 4.101850e+000  1.238309e-004  1.357177e-004
 4.134880e+000  2.448750e-004  1.356958e-004
 4.167910e+000  1.362353e-004  1.358337e-004
 4.200940e+000  1.248529e-005  1.362848e-004
 4.233970e+000 -6.536765e-005  1.366209e-004
 4.267000e+000  4.393088e-004  1.378718e-004
 4.300030e+000  3.446397e-004  1.455604e-004
 4.333060e+000  1.290441e-004  1.519987e-004
 4.366090e+000  3.593824e-004  1.463725e-004
 4.399120e+000  3.327941e-005  1.440788e-004
 4.432150e+000 -9.983088e-005  1.434007e-004
 4.465180e+000  8.275735e-005  1.426222e-004
 4.498210e+000  2.612868e-004  1.412501e-004
 4.531240e+000  1.795294e-004  1.419252e-004
 4.564270e+000  8.925735e-005  1.423066e-004
 4.597300e+000 -2.280882e-005  1.422743e-004
 4.630330e+000  5.369853e-005  1.416940e-004
 4.663360e+000  1.858456e-004  1.412915e-004
 4.696390e+000  6.345588e-005  1.425290e-004
 4.729420e+000  3.416912e-004  1.426090e-004
 4.762450e+000  1.499338e-004  1.431758e-004
 4.795480e+000  1.696324e-004  1.426276e-004
 4.828510e+000  3.034044e-004  1.421946e-004
 4.861540e+000  2.803603e-004  1.422463e-004
 4.894570e+000 -5.169118e-006  1.532974e-004
 4.927600e+000  1.213676e-004  1.595490e-004
 4.960630e+000  4.568382e-004  1.516739e-004
 4.993660e+000 -4.588235e-006  1.489999e-004
 5.026690e+000  1.296029e-004  1.500037e-004
 5.059720e+000  4.984265e-004  1.494066e-004
 5.092750e+000  1.774559e-004  1.482573e-004
 5.125780e+000  3.546029e-004  1.490045e-004
 5.158810e+000  8.196324e-005  1.491629e-004
 5.191840e+000  1.508824e-004  1.476270e-004
 5.224870e+000  2.049044e-004  1.478932e-004
 5.257900e+000  3.919485e-004  1.480427e-004
 5.290930e+000  6.859559e-005  1.481284e-004
 5.323960e+000  2.789853e-004  1.493640e-004
 5.356990e+000  2.897279e-004  1.478779e-004
 5.390020e+000  4.247941e-004  1.482178e-004
 5.423050e+000  1.706912e-004  1.484302e-004
 5.456080e+000  2.410000e-004  1.541096e-004
 5.489110e+000  5.353676e-005  1.658470e-004
 5.522140e+000  2.301029e-004  1.630960e-004
 5.555180e+000 -3.430368e-004  1.584336e-004
 5.588210e+000  4.107868e-004  1.576757e-004
 5.621240e+000  3.285956e-004  1.559020e-004
 5.654270e+000  1.117500e-004  1.553095e-004
 5.687300e+000  1.803750e-004  1.553576e-004
 5.720330e+000  2.179632e-004  1.542012e-004
 5.753360e+000  1.948603e-004  1.542477e-004
 5.786390e+000  1.591029e-004  1.537074e-004
 5.819420e+000  2.928015e-004  1.542574e-004
 5.852450e+000  4.985882e-004  1.540899e-004
 5.885480e+000  3.222941e-004  1.537209e-004
 5.918510e+000  3.247721e-004  1.535165e-004
 5.951540e+000  1.575368e-004  1.529717e-004
 5.984570e+000  1.289485e-004  1.534687e-004
 6.017600e+000  3.300368e-004  1.546251e-004
 6.050630e+000  2.500221e-004  1.658310e-004
 6.083660e+000  3.000368e-004  1.747940e-004
 6.116690e+000  2.763015e-004  1.659307e-004
 6.149720e+000  2.140809e-004  1.627079e-004
 6.182750e+000 -6.884559e-005  1.620593e-004
 6.215780e+000  3.515882e-004  1.617165e-004
 6.248810e+000 -4.065515e-004  1.608694e-004
 6.281840e+000  1.172941e-004  1.617957e-004
 6.314870e+000  1.918971e-004  1.609511e-004
 6.347900e+000  2.067941e-004  1.599006e-004
 6.380930e+000  2.638162e-004  1.597690e-004
 6.413960e+000  1.979044e-004  1.604219e-004
 6.446990e+000  4.044412e-004  1.605822e-004
 6.480020e+000 -2.997059e-005  1.595774e-004
 6.513050e+000 -5.602941e-005  1.615353e-004
 6.546080e+000  2.791985e-004  1.611682e-004
 6.579110e+000  3.291176e-004  1.600448e-004
 6.612140e+000  2.513088e-004  1.609429e-004
 6.645170e+000  1.072500e-004  1.780621e-004
 6.678200e+000  3.110294e-005  1.896862e-004
 6.711230e+000  3.030441e-004  2.003484e-004
 6.744260e+000 -3.725000e-005  2.095285e-004
 6.777290e+000  5.000000e-007  2.169160e-004
 6.810320e+000  3.654412e-004  2.295486e-004
 6.843350e+000  3.772794e-005  2.395011e-004
 6.876380e+000  1.050441e-004  2.547016e-004
 6.909410e+000  1.017279e-004  2.690185e-004
 6.942440e+000  5.626765e-004  2.894620e-004
 6.975470e+000  2.713824e-004  3.150932e-004
 7.008500e+000  6.219853e-005  3.383551e-004
 7.041530e+000  4.025809e-004  3.824525e-004
 7.074560e+000  8.134926e-004  4.403171e-004
 7.107600e+000  3.997574e-004  4.786483e-004
 7.140630e+000  4.825294e-004  5.435412e-004
 7.173660e+000 -1.474559e-004  6.372618e-004
 7.206690e+000 -8.325515e-004  8.209882e-004
 7.239720e+000  3.138603e-004  1.293841e-003
 7.253480e+000  2.427794e-003  2.061874e-003
parent: C:/Users/jeffries/Desktop/p3l-garcia/RNA_Polymerase_Kosinski_EMBO_course/Concentration_series/P1_4_P1_Buffer_0022.dat
parent-concentration: 0.320 / 1.0567
parent: C:/Users/jeffries/Desktop/p3l-garcia/RNA_Polymerase_Kosinski_EMBO_course/Concentration_series/P1_3_P1_Buffer_0019.dat
parent-concentration: 0.690 / 1.0382
parent: C:/Users/jeffries/Desktop/p3l-garcia/RNA_Polymerase_Kosinski_EMBO_course/Concentration_series/P1_2_P1_Buffer_0016.dat
parent-concentration: 1.000 / 0.9974
parent: C:/Users/jeffries/Desktop/p3l-garcia/RNA_Polymerase_Kosinski_EMBO_course/Concentration_series/P1_1_P1_Buffer_0013.dat
parent-concentration: 1.360
creator: almerge
creator-version: 1.1 (r10552)