Folder: embo_integrative_course2022/SAXS_TUTORIAL/AB_INITIO/DAMMIF

Note: README.md
# embo_integrative_course2022

File: merge_001_final.dat
Sample:   c= 1.0125 mg/ml  Code:
Parent(s): C:/Users/jeffries/Desktop/p3l-garcia/RNA_Polymerase_Kosinski_EMBO_course/Concentration_series/P1_1_P1_Buffer_0013.dat C:/Users/jeffries/Desktop/p3l-garcia/RNA_Polymerase_Kosinski_EMBO_course/Concentration_series/P1_2_P1_Buffer_0016.dat C:/Users/jeffries/Desktop/p3l-garcia/RNA_Polymerase_Kosinski_EMBO_course/Concentration_series/P1_3_P1_Buffer_0019.dat C:/Users/jeffries/Desktop/p3l-garcia/RNA_Polymerase_Kosinski_EMBO_course/PolymeraseP1_P1_buffer_0009.dat
 7.491270e-002  4.462122e-001  4.461134e-003
 1.079430e-001  4.074578e-001  2.720479e-003
 1.409730e-001  3.657851e-001  2.077614e-003
 1.740030e-001  3.178201e-001  7.477957e-004
 2.070340e-001  2.710789e-001  6.426526e-004
 2.400640e-001  2.252413e-001  7.420779e-004
 2.730940e-001  1.830498e-001  6.165975e-004
 3.061240e-001  1.451705e-001  5.209221e-004
 3.391540e-001  1.127354e-001  4.818515e-004
 3.721850e-001  8.372034e-002  4.353752e-004
 4.052150e-001  6.181570e-002  2.527521e-004
 4.382450e-001  4.436318e-002  2.185881e-004
 4.712750e-001  3.157036e-002  2.002320e-004
 5.043050e-001  2.127488e-002  1.656352e-004
 5.373360e-001  1.499664e-002  1.488496e-004
 5.703660e-001  1.027173e-002  1.315126e-004
 6.033960e-001  7.527657e-003  1.218567e-004
 6.364260e-001  5.980575e-003  1.161944e-004
 6.694560e-001  5.437488e-003  1.109384e-004
 7.024870e-001  4.878794e-003  1.071614e-004
 7.355170e-001  4.492086e-003  1.040968e-004
 7.685470e-001  4.430689e-003  1.027721e-004
 8.015770e-001  4.133126e-003  1.079054e-004
 8.346080e-001  3.878705e-003  1.109377e-004
 8.676380e-001  3.526984e-003  1.021088e-004
 9.006680e-001  3.203174e-003  1.033328e-004
 9.336980e-001  2.770317e-003  9.797231e-005
 9.667280e-001  2.289013e-003  9.441472e-005
 9.997590e-001  2.034175e-003  9.184828e-005
 1.032790e+000  1.817272e-003  8.935230e-005
 1.065820e+000  1.457321e-003  8.666877e-005
 1.098850e+000  1.467060e-003  8.552309e-005
 1.131880e+000  1.206730e-003  8.363789e-005
 1.164910e+000  1.290010e-003  8.174287e-005
 1.197940e+000  1.143017e-003  8.046008e-005
 1.230970e+000  9.135867e-004  7.922653e-005
 1.264000e+000  1.040778e-003  7.840222e-005
 1.297030e+000  9.184103e-004  7.716396e-005
 1.330060e+000  1.033211e-003  7.613923e-005
 1.363090e+000  6.427841e-004  7.439005e-005
 1.396120e+000  8.091031e-004  7.982597e-005
 1.429150e+000  6.748634e-004  7.911227e-005
 1.462180e+000  6.495651e-004  7.530154e-005
 1.495210e+000  6.098460e-004  7.375735e-005
 1.528240e+000  6.486578e-004  7.284977e-005
 1.561270e+000  4.675636e-004  7.179625e-005
 1.594300e+000  5.044923e-004  7.091348e-005
 1.627330e+000  3.944364e-004  6.999810e-005
 1.660360e+000  4.955666e-004  6.880686e-005
 1.693390e+000  4.397277e-004  6.853535e-005
 1.726420e+000  4.572291e-004  6.799541e-005
 1.759450e+000  4.787668e-004  6.747141e-005
 1.792480e+000  4.126878e-004  6.693213e-005
 1.825510e+000  2.566276e-004  6.696837e-005
 1.858540e+000  3.250754e-004  6.703229e-005
 1.891570e+000  3.395634e-004  6.559141e-005
 1.924600e+000  3.632329e-004  6.503123e-005
 1.957630e+000  3.112776e-004  6.685098e-005
 1.990660e+000  3.059167e-004  6.904258e-005
 2.023700e+000  2.231051e-004  6.724976e-005
 2.056730e+000  2.867366e-004  6.561413e-005
 2.089760e+000  2.353957e-004  6.493762e-005
 2.122790e+000  1.925031e-004  6.441065e-005
 2.155820e+000  2.010688e-004  6.359292e-005
 2.188850e+000  3.583836e-004  6.305537e-005
 2.221880e+000  1.972639e-004  6.297639e-005
 2.254910e+000  2.141908e-004  6.232895e-005
 2.287940e+000  3.140952e-004  6.243474e-005
 2.320970e+000  1.371416e-004  6.185672e-005
 2.354000e+000  3.382204e-004  6.135702e-005
 2.387030e+000  2.482820e-004  6.055221e-005
 2.420060e+000  2.290046e-004  6.032360e-005
 2.453090e+000  3.242310e-004  5.978569e-005
 2.486120e+000  2.932848e-004  5.948465e-005
 2.519150e+000  2.017417e-004  5.941811e-005
 2.552180e+000  9.975428e-005  6.176548e-005
 2.585210e+000  2.171156e-004  6.397314e-005
 2.618240e+000  8.106991e-005  6.107700e-005
 2.651270e+000  1.700310e-004  5.991576e-005
 2.684300e+000  1.665891e-004  5.923134e-005
 2.717330e+000  1.912630e-004  5.870993e-005
 2.750360e+000  1.629442e-004  5.838217e-005
 2.783390e+000  7.743219e-005  5.849588e-005
 2.816420e+000  2.537699e-004  5.777281e-005
 2.849450e+000  1.890411e-004  5.744326e-005
 2.882480e+000  1.640673e-004  5.714196e-005
 2.915510e+000  2.521940e-004  5.689100e-005
 2.948540e+000  3.315394e-004  5.673684e-005
 2.981570e+000  1.690352e-004  5.651218e-005
 3.014600e+000  6.620042e-005  5.587912e-005
 3.047630e+000  2.952007e-004  5.611149e-005
 3.080660e+000  1.510152e-004  5.563870e-005
 3.113690e+000  8.563634e-005  5.542707e-005
 3.146720e+000  1.055995e-004  5.873831e-005
 3.179750e+000  1.286431e-004  5.913556e-005
 3.212780e+000  8.082559e-005  5.733102e-005
 3.245810e+000  2.831246e-004  5.674774e-005
 3.278840e+000  1.969511e-004  5.595265e-005
 3.311870e+000  2.016861e-004  5.591029e-005
 3.344900e+000  1.479218e-004  5.536792e-005
 3.377930e+000  2.528055e-004  5.479954e-005
 3.410960e+000  4.402550e-005  5.440922e-005
 3.443990e+000  2.284216e-004  5.423671e-005
 3.477020e+000  1.917231e-004  5.397672e-005
 3.510050e+000  2.151882e-004  5.391386e-005
 3.543080e+000  2.492706e-004  5.393516e-005
 3.576120e+000  9.920419e-005  5.405407e-005
 3.609150e+000  8.686368e-005  5.396570e-005
 3.642180e+000  9.752250e-005  5.380784e-005
 3.675210e+000  1.451414e-004  5.381425e-005
 3.708240e+000  2.149867e-004  5.591279e-005
 3.741270e+000  1.273558e-004  5.775768e-005
 3.774300e+000  8.011833e-005  5.665263e-005
 3.807330e+000  1.271572e-004  5.592049e-005
 3.840360e+000  1.136279e-004  5.538255e-005
 3.873390e+000  2.038735e-004  5.482023e-005
 3.906420e+000  8.955982e-005  5.495461e-005
 3.939450e+000  1.970610e-004  5.525932e-005
 3.972480e+000  1.207847e-004  5.531548e-005
 4.005510e+000  2.105003e-004  5.561533e-005
 4.038540e+000  1.292775e-004  5.551871e-005
 4.071570e+000  1.095916e-004  5.542915e-005
 4.104600e+000  1.185901e-004  5.550556e-005
 4.137630e+000  2.079656e-004  5.529726e-005
 4.170660e+000  1.849577e-004  5.544250e-005
 4.203690e+000  1.744675e-004  5.583434e-005
 4.236720e+000  1.238495e-004  5.595407e-005
 4.269750e+000  1.304734e-004  5.578254e-005
 4.302780e+000  1.357156e-004  5.948757e-005
 4.335810e+000  8.031264e-005  6.222616e-005
 4.368840e+000  2.161626e-005  5.945850e-005
 4.401870e+000  1.164812e-004  5.882247e-005
 4.434900e+000  1.989785e-004  5.808705e-005
 4.467930e+000  1.673078e-004  5.788263e-005
 4.500960e+000  1.474475e-004  5.781794e-005
 4.533990e+000  2.549015e-004  5.754596e-005
 4.567020e+000  1.526397e-004  5.733267e-005
 4.600050e+000  7.726502e-005  5.753533e-005
 4.633080e+000  1.603838e-004  5.742669e-005
 4.666110e+000  2.010888e-004  5.734903e-005
 4.699140e+000  1.670206e-004  5.754722e-005
 4.732170e+000  9.328040e-005  5.783982e-005
 4.765200e+000  9.390050e-005  5.803226e-005
 4.798230e+000  1.969581e-004  5.779034e-005
 4.831260e+000  1.682993e-004  5.782962e-005
 4.864290e+000  1.936219e-004  5.793655e-005
 4.897320e+000  1.294561e-004  6.267851e-005
 4.930350e+000  1.067425e-004  6.335522e-005
 4.963380e+000  1.439527e-004  6.131099e-005
 4.996410e+000  4.370831e-005  6.080677e-005
 5.029440e+000  1.957566e-004  6.073201e-005
 5.062470e+000  1.691709e-004  6.045869e-005
 5.095500e+000  1.946750e-004  6.042248e-005
 5.128530e+000  1.304149e-004  6.000905e-005
 5.161570e+000  1.022261e-004  6.012574e-005
 5.194600e+000  1.950822e-004  5.995033e-005
 5.227630e+000  8.742233e-005  5.959668e-005
 5.260660e+000  6.271845e-005  5.984006e-005
 5.293690e+000  1.139051e-004  6.011524e-005
 5.326720e+000  1.940834e-004  6.006440e-005
 5.359750e+000  9.646233e-005  5.992557e-005
 5.392780e+000  2.186102e-004  5.947833e-005
 5.425810e+000  3.011731e-004  6.002692e-005
 5.458840e+000  1.188359e-004  6.269307e-005
 5.491870e+000  5.593595e-005  6.677792e-005
 5.524900e+000  1.127635e-004  6.491675e-005
 5.557930e+000  1.085213e-004  6.376147e-005
 5.590960e+000  2.072298e-004  6.371259e-005
 5.623990e+000  2.765021e-004  6.300853e-005
 5.657020e+000  5.579879e-005  6.216438e-005
 5.690050e+000  2.901999e-004  6.251594e-005
 5.723080e+000  2.954694e-004  6.241961e-005
 5.756110e+000  2.499593e-004  6.233885e-005
 5.789140e+000  2.199704e-004  6.242666e-005
 5.822170e+000  1.416123e-004  6.217800e-005
 5.855200e+000  2.653846e-004  6.195677e-005
 5.888230e+000  2.024533e-004  6.216919e-005
 5.921260e+000  1.239995e-004  6.198374e-005
 5.954290e+000  1.970696e-004  6.235433e-005
 5.987320e+000  1.085170e-004  6.226942e-005
 6.020350e+000  1.517696e-004  6.223544e-005
 6.053380e+000  1.506923e-004  6.726739e-005
 6.086410e+000  3.327724e-004  7.113770e-005
 6.119440e+000  1.456815e-004  6.696192e-005
 6.152470e+000  1.104160e-004  6.585092e-005
 6.185500e+000  2.238324e-004  6.563632e-005
 6.218530e+000  1.551044e-004  6.548770e-005
 6.251560e+000  1.134664e-004  6.526340e-005
 6.284590e+000  3.595852e-005  6.534380e-005
 6.317620e+000  1.958194e-004  6.509842e-005
 6.350650e+000  2.079242e-004  6.453868e-005
 6.383680e+000  1.874453e-004  6.474759e-005
 6.416710e+000  8.775096e-005  6.465234e-005
 6.449740e+000  1.849249e-004  6.463999e-005
 6.482770e+000  2.185487e-004  6.485033e-005
 6.515800e+000  7.466461e-005  6.493385e-005
 6.548830e+000  1.459630e-004  6.480959e-005
 6.581860e+000  1.477032e-004  6.462469e-005
 6.614890e+000  2.505523e-004  6.480452e-005
 6.647920e+000  9.944566e-005  7.196313e-005
 6.680950e+000  1.902585e-004  7.626463e-005
 6.713990e+000  2.044207e-004  8.035885e-005
 6.747020e+000  1.447799e-005  8.467610e-005
 6.780050e+000  1.517539e-004  8.759069e-005
 6.813080e+000  1.743275e-004  9.204732e-005
 6.846110e+000  1.761335e-004  9.753585e-005
 6.879140e+000  1.966009e-004  1.025875e-004
 6.912170e+000  1.005001e-004  1.096386e-004
 6.945200e+000  2.749004e-006  1.179157e-004
 6.978230e+000  1.418566e-004  1.300175e-004
 7.011260e+000  8.856395e-005  1.356710e-004
 7.044290e+000  2.219392e-004  1.550922e-004
 7.077320e+000  1.094958e-004  1.800140e-004
 7.096590e+000  3.112019e-004  1.892908e-004
range-from: 43.0000
range-to: 711.2500
Bragg Angle [mrad]: 10.9539
Concentration [mg/ml]: 1.0125
Contrast [10^10cm^-2]: 2.953
Detector Distance [m]: 3.0
Detector Name: pilatus6m
Diode 1: .0000
Diode 2: .0000
Exposure Delay [s]: 0.000
Exposure period [s]: 0.100
Exposure time [s]: 0.095
PETRA Current: 100.5782
Partial Specific Volume [cm^3/g]: 0.732
QBPM 1: .0000
Run Number: 14.2500
SC Current Temperature: 12.6150
SC Target Temperature: 12.5000
SEU Current Temperature: 20.1625
SEU Horizontal Position: 1.800
SEU Target Temperature: 20.0
SEU Vertical Position: 3.3900
Transmitted Beam (mean): .6810
Wavelength [nm]: .1244
angular-axis-file: etc/radial-averaging/saxs-2/saxis_saxs2_20181018.dat
angular-unit: nanometer
beam-center-x: 1151.3
beam-center-y: 2407.9
beamstop-mask-file: etc/radial-averaging/saxs-2/mask_saxs2_20181018.msk
channel-first: 7
channel-last: 2636
databsolute-cell: monitoring/data/cap_0002_00001.dat
databsolute-factor: 5.55419E-05
databsolute-temperature: 1.01000E+01
databsolute-water: monitoring/data/h2o_0002_00001.dat
detector-response-file: none
flatfield-file: none
unit-time: 100.0000
working-directory: .1244
Description: Pol1_CMJ
parent: C:/Users/jeffries/Desktop/p3l-garcia/RNA_Polymerase_Kosinski_EMBO_course/Concentration_series/P1_1_P1_Buffer_0013.dat
parent: C:/Users/jeffries/Desktop/p3l-garcia/RNA_Polymerase_Kosinski_EMBO_course/Concentration_series/P1_2_P1_Buffer_0016.dat
parent: C:/Users/jeffries/Desktop/p3l-garcia/RNA_Polymerase_Kosinski_EMBO_course/Concentration_series/P1_3_P1_Buffer_0019.dat
parent: C:/Users/jeffries/Desktop/p3l-garcia/RNA_Polymerase_Kosinski_EMBO_course/PolymeraseP1_P1_buffer_0009.dat
parent:
parent:
creator: datmerge
creator-version: v0.3 (r10552)
datmerge-scale: .9990
datmerge-scale: .9987
datmerge-scale: 1.0000
datmerge-scale: .9996